USUBJID,TRT01P,AESEQ,AEBODSYS,AEDECOD,AESTDT,AEENDT,AETOXGR,AEREL,AEACN,AEOUT
ONC-305-301-0007,ONC-305 + SOC,1,GASTROINTESTINAL DISORDERS,Nausea,2024-08-09,2024-08-22,2,Y,DOSE NOT CHANGED,Not recovered/not resolved
ONC-305-301-0007,ONC-305 + SOC,2,METABOLISM AND NUTRITION DISORDERS,Decreased appetite,2024-08-11,2024-09-08,2,N,DOSE REDUCED,Not recovered/not resolved
ONC-305-301-0007,ONC-305 + SOC,3,HEPATOBILIARY DISORDERS,Alanine aminotransferase increased,2025-03-06,2025-03-16,4,Y,DOSE NOT CHANGED,Recovered/resolved
ONC-305-301-0011,ONC-305 + SOC,5,INVESTIGATIONS,Weight decreased,2025-01-14,2025-01-22,4,Y,DRUG WITHDRAWN,Recovered/resolved
ONC-305-301-0019,ONC-305 + SOC,2,GASTROINTESTINAL DISORDERS,Diarrhoea,2024-08-07,2024-08-29,4,Y,DRUG INTERRUPTED,Recovering/resolving
ONC-305-301-0021,ONC-305 + SOC,2,SKIN AND SUBCUTANEOUS TISSUE DISORDERS,Rash,2024-08-23,2024-09-16,1,N,DOSE NOT CHANGED,Recovering/resolving
ONC-305-301-0023,ONC-305 + SOC,1,GENERAL DISORDERS,Fatigue,2024-11-06,2024-11-20,1,Y,DOSE REDUCED,Recovered/resolved
ONC-305-301-0036,ONC-305 + SOC,1,GASTROINTESTINAL DISORDERS,Diarrhoea,2024-01-07,2024-01-30,3,N,DOSE NOT CHANGED,Recovered/resolved
ONC-305-301-0047,ONC-305 + SOC,1,BLOOD AND LYMPHATIC SYSTEM DISORDERS,Neutropenia,2025-02-13,2025-02-26,1,N,DOSE NOT CHANGED,Recovering/resolving
ONC-305-301-0052,ONC-305 + SOC,1,METABOLISM AND NUTRITION DISORDERS,Decreased appetite,2024-04-28,2024-05-06,2,Y,DOSE NOT CHANGED,Not recovered/not resolved
ONC-305-301-0054,ONC-305 + SOC,1,GENERAL DISORDERS,Fatigue,2024-05-20,2024-05-23,2,N,DRUG INTERRUPTED,Recovered/resolved
ONC-305-301-0055,ONC-305 + SOC,1,GASTROINTESTINAL DISORDERS,Nausea,2024-08-05,2024-08-09,4,Y,DOSE NOT CHANGED,Recovering/resolving
ONC-305-301-0076,ONC-305 + SOC,2,GENERAL DISORDERS,Fatigue,2024-01-06,2024-01-14,1,Y,DOSE NOT CHANGED,Recovered/resolved
ONC-305-301-0078,ONC-305 + SOC,1,GASTROINTESTINAL DISORDERS,Diarrhoea,2024-05-03,2024-05-19,4,N,DOSE NOT CHANGED,Recovered/resolved
ONC-305-301-0085,ONC-305 + SOC,3,BLOOD AND LYMPHATIC SYSTEM DISORDERS,Neutropenia,2024-05-19,2024-05-22,4,N,DRUG INTERRUPTED,Recovered/resolved
ONC-305-301-0087,ONC-305 + SOC,1,GASTROINTESTINAL DISORDERS,Nausea,2024-12-21,2024-12-26,2,Y,DOSE NOT CHANGED,Recovered/resolved
ONC-305-301-0093,ONC-305 + SOC,1,BLOOD AND LYMPHATIC SYSTEM DISORDERS,Anaemia,2024-12-15,2024-12-22,3,N,DOSE REDUCED,Recovering/resolving
ONC-305-301-0094,ONC-305 + SOC,1,GASTROINTESTINAL DISORDERS,Nausea,2024-09-13,2024-09-24,4,Y,DOSE NOT CHANGED,Not recovered/not resolved
ONC-305-301-0096,ONC-305 + SOC,1,GENERAL DISORDERS,Fatigue,2025-02-14,2025-03-01,2,N,DOSE NOT CHANGED,Not recovered/not resolved
ONC-305-301-0126,ONC-305 + SOC,1,GASTROINTESTINAL DISORDERS,Diarrhoea,2025-04-11,2025-04-23,3,N,DRUG WITHDRAWN,Recovered/resolved
ONC-305-301-0130,ONC-305 + SOC,4,BLOOD AND LYMPHATIC SYSTEM DISORDERS,Anaemia,2024-05-13,2024-05-22,4,N,DOSE NOT CHANGED,Recovered/resolved
ONC-305-301-0144,ONC-305 + SOC,1,GENERAL DISORDERS,Fatigue,2025-03-04,2025-03-22,3,Y,DOSE REDUCED,Recovered/resolved
ONC-305-301-0149,ONC-305 + SOC,3,BLOOD AND LYMPHATIC SYSTEM DISORDERS,Anaemia,2024-09-25,2024-10-09,4,Y,DOSE NOT CHANGED,Recovered/resolved
ONC-305-301-0151,ONC-305 + SOC,3,INVESTIGATIONS,Weight decreased,2024-12-07,2024-12-25,4,Y,DRUG WITHDRAWN,Recovering/resolving
ONC-305-301-0157,ONC-305 + SOC,3,"RESPIRATORY, THORACIC AND MEDIASTINAL DISORDERS",Dyspnoea,2025-01-12,2025-02-03,5,Y,DRUG WITHDRAWN,Fatal
ONC-305-301-0165,ONC-305 + SOC,1,GASTROINTESTINAL DISORDERS,Nausea,2024-11-25,2024-11-28,1,N,DOSE NOT CHANGED,Recovered/resolved
ONC-305-301-0165,ONC-305 + SOC,3,METABOLISM AND NUTRITION DISORDERS,Decreased appetite,2024-10-05,2024-10-13,4,Y,DRUG INTERRUPTED,Recovered/resolved
ONC-305-301-0166,ONC-305 + SOC,3,GENERAL DISORDERS,Pyrexia,2025-03-21,2025-04-12,2,Y,DOSE NOT CHANGED,Recovered/resolved
ONC-305-301-0172,ONC-305 + SOC,1,SKIN AND SUBCUTANEOUS TISSUE DISORDERS,Rash,2024-06-14,2024-07-04,2,N,DOSE NOT CHANGED,Recovered/resolved
ONC-305-301-0173,ONC-305 + SOC,1,GASTROINTESTINAL DISORDERS,Diarrhoea,2024-05-09,2024-05-10,4,Y,DOSE REDUCED,Recovered/resolved
ONC-305-301-0176,ONC-305 + SOC,2,GENERAL DISORDERS,Fatigue,2024-10-26,2024-11-12,3,Y,DOSE NOT CHANGED,Recovered/resolved
ONC-305-301-0183,ONC-305 + SOC,4,INVESTIGATIONS,Weight decreased,2024-10-03,2024-10-13,4,Y,DRUG INTERRUPTED,Recovered/resolved
ONC-305-301-0184,ONC-305 + SOC,3,BLOOD AND LYMPHATIC SYSTEM DISORDERS,Anaemia,2024-03-18,2024-04-12,2,N,DOSE NOT CHANGED,Recovering/resolving
ONC-305-301-0188,ONC-305 + SOC,1,GENERAL DISORDERS,Fatigue,2024-07-17,2024-07-24,2,Y,DOSE REDUCED,Recovering/resolving
ONC-305-301-0188,ONC-305 + SOC,2,METABOLISM AND NUTRITION DISORDERS,Decreased appetite,2025-06-13,2025-06-17,4,Y,DOSE NOT CHANGED,Recovered/resolved
ONC-305-301-0193,ONC-305 + SOC,2,BLOOD AND LYMPHATIC SYSTEM DISORDERS,Neutropenia,2024-12-12,2025-01-06,1,Y,DOSE NOT CHANGED,Not recovered/not resolved
ONC-305-301-0194,ONC-305 + SOC,6,INVESTIGATIONS,Weight decreased,2025-01-01,2025-01-29,4,Y,DRUG INTERRUPTED,Recovered/resolved
ONC-305-301-0196,ONC-305 + SOC,1,GASTROINTESTINAL DISORDERS,Diarrhoea,2024-09-23,2024-10-19,4,Y,DRUG INTERRUPTED,Recovered/resolved
ONC-305-301-0200,ONC-305 + SOC,4,BLOOD AND LYMPHATIC SYSTEM DISORDERS,Anaemia,2024-05-04,2024-05-26,3,Y,DRUG INTERRUPTED,Recovered/resolved
ONC-305-301-0200,ONC-305 + SOC,7,INVESTIGATIONS,Weight decreased,2024-06-20,2024-07-11,3,N,DRUG INTERRUPTED,Recovering/resolving
ONC-305-301-0203,ONC-305 + SOC,1,BLOOD AND LYMPHATIC SYSTEM DISORDERS,Neutropenia,2024-07-26,2024-07-31,5,Y,DRUG WITHDRAWN,Fatal
ONC-305-301-0203,ONC-305 + SOC,3,HEPATOBILIARY DISORDERS,Alanine aminotransferase increased,2024-08-01,2024-08-13,5,Y,DRUG WITHDRAWN,Fatal
ONC-305-301-0209,ONC-305 + SOC,2,SKIN AND SUBCUTANEOUS TISSUE DISORDERS,Rash,2025-01-05,2025-01-30,3,N,DRUG WITHDRAWN,Recovered/resolved
ONC-305-301-0215,ONC-305 + SOC,3,BLOOD AND LYMPHATIC SYSTEM DISORDERS,Neutropenia,2024-12-29,2025-01-07,3,Y,DOSE NOT CHANGED,Recovering/resolving
ONC-305-301-0215,ONC-305 + SOC,4,SKIN AND SUBCUTANEOUS TISSUE DISORDERS,Rash,2024-06-28,2024-07-08,5,N,DRUG WITHDRAWN,Fatal
ONC-305-301-0217,ONC-305 + SOC,2,BLOOD AND LYMPHATIC SYSTEM DISORDERS,Anaemia,2024-10-17,2024-10-23,1,Y,DOSE NOT CHANGED,Recovering/resolving
ONC-305-301-0226,ONC-305 + SOC,3,"RESPIRATORY, THORACIC AND MEDIASTINAL DISORDERS",Dyspnoea,2024-07-16,2024-07-22,1,N,DRUG INTERRUPTED,Recovered/resolved
ONC-305-301-0239,ONC-305 + SOC,3,GENERAL DISORDERS,Fatigue,2024-08-12,2024-09-05,5,Y,DRUG WITHDRAWN,Fatal
ONC-305-301-0240,ONC-305 + SOC,1,GASTROINTESTINAL DISORDERS,Diarrhoea,2024-06-17,2024-06-21,4,N,DOSE NOT CHANGED,Recovering/resolving
ONC-305-301-0242,ONC-305 + SOC,1,GASTROINTESTINAL DISORDERS,Nausea,2024-11-01,2024-11-01,4,Y,DOSE REDUCED,Recovered/resolved
ONC-305-301-0242,ONC-305 + SOC,2,SKIN AND SUBCUTANEOUS TISSUE DISORDERS,Rash,2024-05-21,2024-06-08,4,Y,DRUG WITHDRAWN,Recovered/resolved
ONC-305-301-0243,ONC-305 + SOC,2,NERVOUS SYSTEM DISORDERS,Headache,2024-09-08,2024-09-20,4,Y,DOSE NOT CHANGED,Recovered/resolved
ONC-305-301-0248,ONC-305 + SOC,2,GENERAL DISORDERS,Pyrexia,2024-09-23,2024-10-18,4,Y,DOSE NOT CHANGED,Recovered/resolved
ONC-305-301-0264,ONC-305 + SOC,1,GASTROINTESTINAL DISORDERS,Nausea,2024-05-08,2024-05-27,4,N,DRUG WITHDRAWN,Recovered/resolved
ONC-305-301-0272,ONC-305 + SOC,2,"RESPIRATORY, THORACIC AND MEDIASTINAL DISORDERS",Dyspnoea,2025-05-13,2025-06-01,5,N,DRUG WITHDRAWN,Fatal
ONC-305-301-0272,ONC-305 + SOC,3,MUSCULOSKELETAL AND CONNECTIVE TISSUE DISORDERS,Arthralgia,2025-04-27,2025-05-16,4,N,DOSE NOT CHANGED,Recovering/resolving
ONC-305-301-0273,ONC-305 + SOC,2,METABOLISM AND NUTRITION DISORDERS,Decreased appetite,2024-10-06,2024-10-22,4,Y,DOSE NOT CHANGED,Recovered/resolved
ONC-305-301-0276,ONC-305 + SOC,3,INFECTIONS AND INFESTATIONS,Pneumonia,2025-01-12,2025-01-30,2,Y,DOSE NOT CHANGED,Recovering/resolving
ONC-305-301-0278,ONC-305 + SOC,1,METABOLISM AND NUTRITION DISORDERS,Decreased appetite,2024-09-27,2024-10-10,3,Y,DOSE NOT CHANGED,Recovered/resolved
ONC-305-301-0279,ONC-305 + SOC,1,BLOOD AND LYMPHATIC SYSTEM DISORDERS,Anaemia,2024-08-21,2024-09-07,1,N,DOSE NOT CHANGED,Recovered/resolved
ONC-305-301-0292,ONC-305 + SOC,1,GASTROINTESTINAL DISORDERS,Diarrhoea,2024-06-20,2024-07-05,5,Y,DRUG WITHDRAWN,Fatal
ONC-305-301-0305,ONC-305 + SOC,2,GASTROINTESTINAL DISORDERS,Diarrhoea,2024-11-05,2024-11-08,1,Y,DOSE NOT CHANGED,Recovering/resolving
ONC-305-301-0318,ONC-305 + SOC,3,GENERAL DISORDERS,Fatigue,2024-10-19,2024-11-08,4,Y,DOSE NOT CHANGED,Recovered/resolved
ONC-305-301-0322,ONC-305 + SOC,3,METABOLISM AND NUTRITION DISORDERS,Decreased appetite,2024-09-11,2024-09-30,4,N,DRUG INTERRUPTED,Recovered/resolved
ONC-305-301-0335,ONC-305 + SOC,3,"RESPIRATORY, THORACIC AND MEDIASTINAL DISORDERS",Dyspnoea,2024-04-08,2024-04-13,2,N,DOSE REDUCED,Recovered/resolved
ONC-305-301-0338,ONC-305 + SOC,2,GENERAL DISORDERS,Fatigue,2024-10-18,2024-11-14,4,Y,DRUG WITHDRAWN,Recovered/resolved
ONC-305-301-0348,ONC-305 + SOC,4,GENERAL DISORDERS,Pyrexia,2025-02-27,2025-03-02,2,N,DOSE NOT CHANGED,Recovering/resolving
ONC-305-301-0359,ONC-305 + SOC,1,GASTROINTESTINAL DISORDERS,Diarrhoea,2024-07-09,2024-07-12,3,Y,DRUG INTERRUPTED,Recovered/resolved
ONC-305-301-0359,ONC-305 + SOC,4,INFECTIONS AND INFESTATIONS,Pneumonia,2024-05-16,2024-06-13,1,N,DRUG INTERRUPTED,Recovered/resolved
ONC-305-301-0374,ONC-305 + SOC,1,GASTROINTESTINAL DISORDERS,Diarrhoea,2024-06-03,2024-06-14,4,Y,DOSE NOT CHANGED,Recovering/resolving
ONC-305-301-0374,ONC-305 + SOC,2,GENERAL DISORDERS,Fatigue,2024-05-16,2024-06-09,4,Y,DOSE NOT CHANGED,Recovered/resolved
ONC-305-301-0380,ONC-305 + SOC,2,GASTROINTESTINAL DISORDERS,Diarrhoea,2025-01-05,2025-01-11,3,Y,DOSE NOT CHANGED,Not recovered/not resolved
ONC-305-301-0381,ONC-305 + SOC,1,GENERAL DISORDERS,Fatigue,2024-06-28,2024-07-24,2,N,DOSE REDUCED,Recovering/resolving
ONC-305-301-0400,ONC-305 + SOC,2,GENERAL DISORDERS,Fatigue,2025-03-16,2025-04-06,4,N,DRUG WITHDRAWN,Recovered/resolved
ONC-305-301-0400,ONC-305 + SOC,5,GENERAL DISORDERS,Pyrexia,2025-03-30,2025-04-19,4,N,DOSE NOT CHANGED,Recovered/resolved
ONC-305-301-0404,ONC-305 + SOC,1,GASTROINTESTINAL DISORDERS,Diarrhoea,2024-05-10,2024-05-27,3,N,DOSE REDUCED,Recovered/resolved
ONC-305-301-0407,ONC-305 + SOC,2,BLOOD AND LYMPHATIC SYSTEM DISORDERS,Neutropenia,2025-04-21,2025-05-06,4,Y,DRUG WITHDRAWN,Recovered/resolved
ONC-305-301-0407,ONC-305 + SOC,3,"RESPIRATORY, THORACIC AND MEDIASTINAL DISORDERS",Dyspnoea,2025-07-09,2025-07-21,4,Y,DOSE NOT CHANGED,Recovered/resolved
ONC-305-301-0026,Placebo + SOC,2,BLOOD AND LYMPHATIC SYSTEM DISORDERS,Anaemia,2024-10-10,2024-10-28,4,Y,DOSE REDUCED,Recovered/resolved
ONC-305-301-0028,Placebo + SOC,1,BLOOD AND LYMPHATIC SYSTEM DISORDERS,Neutropenia,2024-08-18,2024-09-14,4,N,DRUG WITHDRAWN,Not recovered/not resolved
ONC-305-301-0042,Placebo + SOC,2,GASTROINTESTINAL DISORDERS,Diarrhoea,2024-08-17,2024-09-08,4,N,DRUG INTERRUPTED,Recovered/resolved
ONC-305-301-0061,Placebo + SOC,1,MUSCULOSKELETAL AND CONNECTIVE TISSUE DISORDERS,Arthralgia,2025-02-13,2025-03-02,5,N,DRUG WITHDRAWN,Fatal
ONC-305-301-0069,Placebo + SOC,3,BLOOD AND LYMPHATIC SYSTEM DISORDERS,Neutropenia,2025-04-28,2025-05-16,2,N,DOSE NOT CHANGED,Recovered/resolved
ONC-305-301-0083,Placebo + SOC,1,GASTROINTESTINAL DISORDERS,Diarrhoea,2024-06-29,2024-07-10,4,Y,DOSE NOT CHANGED,Recovering/resolving
ONC-305-301-0095,Placebo + SOC,1,METABOLISM AND NUTRITION DISORDERS,Decreased appetite,2024-05-02,2024-05-27,3,Y,DRUG WITHDRAWN,Recovered/resolved
ONC-305-301-0103,Placebo + SOC,1,GASTROINTESTINAL DISORDERS,Diarrhoea,2024-06-23,2024-07-12,5,Y,DRUG WITHDRAWN,Fatal
ONC-305-301-0109,Placebo + SOC,1,GASTROINTESTINAL DISORDERS,Nausea,2025-03-27,2025-04-10,5,Y,DRUG WITHDRAWN,Fatal
ONC-305-301-0118,Placebo + SOC,4,MUSCULOSKELETAL AND CONNECTIVE TISSUE DISORDERS,Arthralgia,2024-06-30,2024-07-01,1,N,DOSE NOT CHANGED,Not recovered/not resolved
ONC-305-301-0123,Placebo + SOC,2,BLOOD AND LYMPHATIC SYSTEM DISORDERS,Anaemia,2025-01-12,2025-02-07,1,Y,DOSE REDUCED,Recovering/resolving
ONC-305-301-0125,Placebo + SOC,2,METABOLISM AND NUTRITION DISORDERS,Decreased appetite,2024-09-12,2024-09-23,3,N,DOSE NOT CHANGED,Not recovered/not resolved
ONC-305-301-0128,Placebo + SOC,2,BLOOD AND LYMPHATIC SYSTEM DISORDERS,Anaemia,2025-05-02,2025-05-22,1,N,DOSE NOT CHANGED,Recovered/resolved
ONC-305-301-0153,Placebo + SOC,1,GASTROINTESTINAL DISORDERS,Diarrhoea,2024-10-04,2024-10-30,2,N,DOSE NOT CHANGED,Recovered/resolved
ONC-305-301-0153,Placebo + SOC,2,GENERAL DISORDERS,Fatigue,2024-04-08,2024-05-04,4,N,DRUG WITHDRAWN,Not recovered/not resolved
ONC-305-301-0153,Placebo + SOC,3,BLOOD AND LYMPHATIC SYSTEM DISORDERS,Neutropenia,2024-09-12,2024-09-19,2,Y,DOSE NOT CHANGED,Recovering/resolving
ONC-305-301-0155,Placebo + SOC,2,GASTROINTESTINAL DISORDERS,Diarrhoea,2024-01-27,2024-02-23,3,Y,DOSE NOT CHANGED,Recovering/resolving
ONC-305-301-0167,Placebo + SOC,2,METABOLISM AND NUTRITION DISORDERS,Decreased appetite,2024-12-29,2025-01-22,1,Y,DOSE NOT CHANGED,Recovered/resolved
ONC-305-301-0167,Placebo + SOC,3,BLOOD AND LYMPHATIC SYSTEM DISORDERS,Anaemia,2024-03-30,2024-04-12,4,N,DOSE NOT CHANGED,Recovered/resolved
ONC-305-301-0168,Placebo + SOC,1,GASTROINTESTINAL DISORDERS,Diarrhoea,2024-03-19,2024-03-29,2,N,DOSE NOT CHANGED,Recovering/resolving
ONC-305-301-0170,Placebo + SOC,5,"RESPIRATORY, THORACIC AND MEDIASTINAL DISORDERS",Dyspnoea,2024-10-18,2024-10-22,4,N,DOSE NOT CHANGED,Recovered/resolved
ONC-305-301-0211,Placebo + SOC,1,HEPATOBILIARY DISORDERS,Alanine aminotransferase increased,2024-10-18,2024-10-24,2,Y,DOSE NOT CHANGED,Recovering/resolving
