<?xml version="1.0" encoding="UTF-8"?>
<ODM FileType="Snapshot" FileOID="ONC-305-301.DEFINE" CreationDateTime="2026-01-31T00:00:00" ODMVersion="1.3.2">
  <Study OID="ONC-305-301">
    <GlobalVariables>
      <StudyName>ONC-305-301 Simulated Phase III Oncology Portfolio</StudyName>
      <StudyDescription>Simulated randomized Phase III oncology statistical submission portfolio.</StudyDescription>
      <ProtocolName>ONC-305-301</ProtocolName>
    </GlobalVariables>
    <MetaDataVersion OID="MDV.ADAM" Name="ADaM-style metadata" Description="Portfolio metadata; not a formal CDISC submission.">
      <ItemGroupDef OID="IG.ADAE" Name="ADAE" Repeating="No" IsReferenceData="No" SASDatasetName="ADAE" Domain="ADAE" Purpose="Analysis">
        <Description><TranslatedText>Adverse Event Analysis Dataset</TranslatedText></Description>
        <ItemRef ItemOID="IT.ADAE.STUDYID" Mandatory="No" />
        <ItemRef ItemOID="IT.ADAE.USUBJID" Mandatory="No" />
        <ItemRef ItemOID="IT.ADAE.TRT01P" Mandatory="No" />
        <ItemRef ItemOID="IT.ADAE.TRT01PN" Mandatory="No" />
        <ItemRef ItemOID="IT.ADAE.SAFFL" Mandatory="No" />
        <ItemRef ItemOID="IT.ADAE.TRTSDT" Mandatory="No" />
        <ItemRef ItemOID="IT.ADAE.TRTEDT" Mandatory="No" />
        <ItemRef ItemOID="IT.ADAE.AESEQ" Mandatory="No" />
        <ItemRef ItemOID="IT.ADAE.AEBODSYS" Mandatory="No" />
        <ItemRef ItemOID="IT.ADAE.AEDECOD" Mandatory="No" />
        <ItemRef ItemOID="IT.ADAE.AETERM" Mandatory="No" />
        <ItemRef ItemOID="IT.ADAE.AESTDT" Mandatory="No" />
        <ItemRef ItemOID="IT.ADAE.AEENDT" Mandatory="No" />
        <ItemRef ItemOID="IT.ADAE.ASTDY" Mandatory="No" />
        <ItemRef ItemOID="IT.ADAE.AENDY" Mandatory="No" />
        <ItemRef ItemOID="IT.ADAE.AETOXGR" Mandatory="No" />
        <ItemRef ItemOID="IT.ADAE.AESER" Mandatory="No" />
        <ItemRef ItemOID="IT.ADAE.AEREL" Mandatory="No" />
        <ItemRef ItemOID="IT.ADAE.AEACN" Mandatory="No" />
        <ItemRef ItemOID="IT.ADAE.AEOUT" Mandatory="No" />
        <ItemRef ItemOID="IT.ADAE.AESDTH" Mandatory="No" />
        <ItemRef ItemOID="IT.ADAE.TRTEMFL" Mandatory="No" />
        <ItemRef ItemOID="IT.ADAE.AOCCFL" Mandatory="No" />
        <ItemRef ItemOID="IT.ADAE.AOCCSFL" Mandatory="No" />
      </ItemGroupDef>
      <ItemGroupDef OID="IG.ADLB" Name="ADLB" Repeating="No" IsReferenceData="No" SASDatasetName="ADLB" Domain="ADLB" Purpose="Analysis">
        <Description><TranslatedText>Laboratory Shift Analysis Dataset</TranslatedText></Description>
        <ItemRef ItemOID="IT.ADLB.STUDYID" Mandatory="No" />
        <ItemRef ItemOID="IT.ADLB.USUBJID" Mandatory="No" />
        <ItemRef ItemOID="IT.ADLB.TRT01P" Mandatory="No" />
        <ItemRef ItemOID="IT.ADLB.TRT01PN" Mandatory="No" />
        <ItemRef ItemOID="IT.ADLB.PARAM" Mandatory="No" />
        <ItemRef ItemOID="IT.ADLB.PARAMCD" Mandatory="No" />
        <ItemRef ItemOID="IT.ADLB.BASEGR" Mandatory="No" />
        <ItemRef ItemOID="IT.ADLB.WORSTGR" Mandatory="No" />
        <ItemRef ItemOID="IT.ADLB.SHIFT" Mandatory="No" />
        <ItemRef ItemOID="IT.ADLB.ANL01FL" Mandatory="No" />
        <ItemRef ItemOID="IT.ADLB.SAFFL" Mandatory="No" />
      </ItemGroupDef>
      <ItemGroupDef OID="IG.ADRS" Name="ADRS" Repeating="No" IsReferenceData="No" SASDatasetName="ADRS" Domain="ADRS" Purpose="Analysis">
        <Description><TranslatedText>Tumor Response Analysis Dataset</TranslatedText></Description>
        <ItemRef ItemOID="IT.ADRS.STUDYID" Mandatory="No" />
        <ItemRef ItemOID="IT.ADRS.USUBJID" Mandatory="No" />
        <ItemRef ItemOID="IT.ADRS.TRT01P" Mandatory="No" />
        <ItemRef ItemOID="IT.ADRS.TRT01PN" Mandatory="No" />
        <ItemRef ItemOID="IT.ADRS.PARAM" Mandatory="No" />
        <ItemRef ItemOID="IT.ADRS.PARAMCD" Mandatory="No" />
        <ItemRef ItemOID="IT.ADRS.BOR" Mandatory="No" />
        <ItemRef ItemOID="IT.ADRS.BORNUM" Mandatory="No" />
        <ItemRef ItemOID="IT.ADRS.ORRFL" Mandatory="No" />
        <ItemRef ItemOID="IT.ADRS.DCRFL" Mandatory="No" />
        <ItemRef ItemOID="IT.ADRS.BESTPCHG" Mandatory="No" />
        <ItemRef ItemOID="IT.ADRS.ANL01FL" Mandatory="No" />
        <ItemRef ItemOID="IT.ADRS.FASFL" Mandatory="No" />
        <ItemRef ItemOID="IT.ADRS.PDL1CAT" Mandatory="No" />
        <ItemRef ItemOID="IT.ADRS.ECOG" Mandatory="No" />
      </ItemGroupDef>
      <ItemGroupDef OID="IG.ADSL" Name="ADSL" Repeating="No" IsReferenceData="No" SASDatasetName="ADSL" Domain="ADSL" Purpose="Analysis">
        <Description><TranslatedText>Subject-Level Analysis Dataset</TranslatedText></Description>
        <ItemRef ItemOID="IT.ADSL.STUDYID" Mandatory="No" />
        <ItemRef ItemOID="IT.ADSL.USUBJID" Mandatory="No" />
        <ItemRef ItemOID="IT.ADSL.SUBJID" Mandatory="No" />
        <ItemRef ItemOID="IT.ADSL.SITEID" Mandatory="No" />
        <ItemRef ItemOID="IT.ADSL.COUNTRY" Mandatory="No" />
        <ItemRef ItemOID="IT.ADSL.REGION" Mandatory="No" />
        <ItemRef ItemOID="IT.ADSL.TRT01P" Mandatory="No" />
        <ItemRef ItemOID="IT.ADSL.TRT01A" Mandatory="No" />
        <ItemRef ItemOID="IT.ADSL.TRT01PN" Mandatory="No" />
        <ItemRef ItemOID="IT.ADSL.TRT01AN" Mandatory="No" />
        <ItemRef ItemOID="IT.ADSL.RANDDT" Mandatory="No" />
        <ItemRef ItemOID="IT.ADSL.TRTSDT" Mandatory="No" />
        <ItemRef ItemOID="IT.ADSL.TRTEDT" Mandatory="No" />
        <ItemRef ItemOID="IT.ADSL.TRTDURD" Mandatory="No" />
        <ItemRef ItemOID="IT.ADSL.TRTDURM" Mandatory="No" />
        <ItemRef ItemOID="IT.ADSL.RDI" Mandatory="No" />
        <ItemRef ItemOID="IT.ADSL.FASFL" Mandatory="No" />
        <ItemRef ItemOID="IT.ADSL.SAFFL" Mandatory="No" />
        <ItemRef ItemOID="IT.ADSL.ITTFL" Mandatory="No" />
        <ItemRef ItemOID="IT.ADSL.AGE" Mandatory="No" />
        <ItemRef ItemOID="IT.ADSL.AGEGR1" Mandatory="No" />
        <ItemRef ItemOID="IT.ADSL.AGEGR1N" Mandatory="No" />
        <ItemRef ItemOID="IT.ADSL.SEX" Mandatory="No" />
        <ItemRef ItemOID="IT.ADSL.RACE" Mandatory="No" />
        <ItemRef ItemOID="IT.ADSL.ECOG" Mandatory="No" />
        <ItemRef ItemOID="IT.ADSL.ECOGN" Mandatory="No" />
        <ItemRef ItemOID="IT.ADSL.STAGE" Mandatory="No" />
        <ItemRef ItemOID="IT.ADSL.STAGE4FL" Mandatory="No" />
        <ItemRef ItemOID="IT.ADSL.PDL1CAT" Mandatory="No" />
        <ItemRef ItemOID="IT.ADSL.PDL1HIGHFL" Mandatory="No" />
        <ItemRef ItemOID="IT.ADSL.HISTOLOGY" Mandatory="No" />
        <ItemRef ItemOID="IT.ADSL.DISEASE_MONTHS" Mandatory="No" />
        <ItemRef ItemOID="IT.ADSL.DCSREAS" Mandatory="No" />
      </ItemGroupDef>
      <ItemGroupDef OID="IG.ADTTE" Name="ADTTE" Repeating="No" IsReferenceData="No" SASDatasetName="ADTTE" Domain="ADTTE" Purpose="Analysis">
        <Description><TranslatedText>Time-to-Event Analysis Dataset</TranslatedText></Description>
        <ItemRef ItemOID="IT.ADTTE.STUDYID" Mandatory="No" />
        <ItemRef ItemOID="IT.ADTTE.USUBJID" Mandatory="No" />
        <ItemRef ItemOID="IT.ADTTE.TRT01P" Mandatory="No" />
        <ItemRef ItemOID="IT.ADTTE.TRT01PN" Mandatory="No" />
        <ItemRef ItemOID="IT.ADTTE.PARAM" Mandatory="No" />
        <ItemRef ItemOID="IT.ADTTE.PARAMCD" Mandatory="No" />
        <ItemRef ItemOID="IT.ADTTE.AVAL" Mandatory="No" />
        <ItemRef ItemOID="IT.ADTTE.AVALD" Mandatory="No" />
        <ItemRef ItemOID="IT.ADTTE.CNSR" Mandatory="No" />
        <ItemRef ItemOID="IT.ADTTE.EVNTDESC" Mandatory="No" />
        <ItemRef ItemOID="IT.ADTTE.STARTDT" Mandatory="No" />
        <ItemRef ItemOID="IT.ADTTE.ADT" Mandatory="No" />
        <ItemRef ItemOID="IT.ADTTE.ANL01FL" Mandatory="No" />
        <ItemRef ItemOID="IT.ADTTE.AGEGR1" Mandatory="No" />
        <ItemRef ItemOID="IT.ADTTE.SEX" Mandatory="No" />
        <ItemRef ItemOID="IT.ADTTE.ECOG" Mandatory="No" />
        <ItemRef ItemOID="IT.ADTTE.STAGE" Mandatory="No" />
        <ItemRef ItemOID="IT.ADTTE.PDL1CAT" Mandatory="No" />
        <ItemRef ItemOID="IT.ADTTE.REGION" Mandatory="No" />
        <ItemRef ItemOID="IT.ADTTE.FASFL" Mandatory="No" />
      </ItemGroupDef>
      <ItemDef OID="IT.ADSL.STUDYID" Name="STUDYID" DataType="text" Length="200">
        <Description><TranslatedText>Identifier; Source/Assigned</TranslatedText></Description>
      </ItemDef>
      <ItemDef OID="IT.ADSL.USUBJID" Name="USUBJID" DataType="text" Length="200">
        <Description><TranslatedText>Identifier; Source/Assigned</TranslatedText></Description>
      </ItemDef>
      <ItemDef OID="IT.ADSL.SUBJID" Name="SUBJID" DataType="text" Length="200">
        <Description><TranslatedText>Identifier; Source/Assigned</TranslatedText></Description>
      </ItemDef>
      <ItemDef OID="IT.ADSL.SITEID" Name="SITEID" DataType="text" Length="200">
        <Description><TranslatedText>Covariate/Descriptor; Source/Assigned</TranslatedText></Description>
      </ItemDef>
      <ItemDef OID="IT.ADSL.COUNTRY" Name="COUNTRY" DataType="text" Length="200">
        <Description><TranslatedText>Covariate/Descriptor; Source/Assigned</TranslatedText></Description>
      </ItemDef>
      <ItemDef OID="IT.ADSL.REGION" Name="REGION" DataType="text" Length="200">
        <Description><TranslatedText>Covariate/Descriptor; Source/Assigned</TranslatedText></Description>
      </ItemDef>
      <ItemDef OID="IT.ADSL.TRT01P" Name="TRT01P" DataType="text" Length="200">
        <Description><TranslatedText>Covariate/Descriptor; Source/Assigned</TranslatedText></Description>
      </ItemDef>
      <ItemDef OID="IT.ADSL.TRT01A" Name="TRT01A" DataType="text" Length="200">
        <Description><TranslatedText>Covariate/Descriptor; Source/Assigned</TranslatedText></Description>
      </ItemDef>
      <ItemDef OID="IT.ADSL.TRT01PN" Name="TRT01PN" DataType="text" Length="200">
        <Description><TranslatedText>Covariate/Descriptor; Derived</TranslatedText></Description>
      </ItemDef>
      <ItemDef OID="IT.ADSL.TRT01AN" Name="TRT01AN" DataType="text" Length="200">
        <Description><TranslatedText>Covariate/Descriptor; Derived</TranslatedText></Description>
      </ItemDef>
      <ItemDef OID="IT.ADSL.RANDDT" Name="RANDDT" DataType="text" Length="200">
        <Description><TranslatedText>Covariate/Descriptor; Source/Assigned</TranslatedText></Description>
      </ItemDef>
      <ItemDef OID="IT.ADSL.TRTSDT" Name="TRTSDT" DataType="text" Length="200">
        <Description><TranslatedText>Covariate/Descriptor; Source/Assigned</TranslatedText></Description>
      </ItemDef>
      <ItemDef OID="IT.ADSL.TRTEDT" Name="TRTEDT" DataType="text" Length="200">
        <Description><TranslatedText>Covariate/Descriptor; Source/Assigned</TranslatedText></Description>
      </ItemDef>
      <ItemDef OID="IT.ADSL.TRTDURD" Name="TRTDURD" DataType="text" Length="200">
        <Description><TranslatedText>Covariate/Descriptor; Source/Assigned</TranslatedText></Description>
      </ItemDef>
      <ItemDef OID="IT.ADSL.TRTDURM" Name="TRTDURM" DataType="text" Length="200">
        <Description><TranslatedText>Covariate/Descriptor; Source/Assigned</TranslatedText></Description>
      </ItemDef>
      <ItemDef OID="IT.ADSL.RDI" Name="RDI" DataType="text" Length="200">
        <Description><TranslatedText>Covariate/Descriptor; Source/Assigned</TranslatedText></Description>
      </ItemDef>
      <ItemDef OID="IT.ADSL.FASFL" Name="FASFL" DataType="text" Length="200">
        <Description><TranslatedText>Covariate/Descriptor; Source/Assigned</TranslatedText></Description>
      </ItemDef>
      <ItemDef OID="IT.ADSL.SAFFL" Name="SAFFL" DataType="text" Length="200">
        <Description><TranslatedText>Covariate/Descriptor; Source/Assigned</TranslatedText></Description>
      </ItemDef>
      <ItemDef OID="IT.ADSL.ITTFL" Name="ITTFL" DataType="text" Length="200">
        <Description><TranslatedText>Covariate/Descriptor; Source/Assigned</TranslatedText></Description>
      </ItemDef>
      <ItemDef OID="IT.ADSL.AGE" Name="AGE" DataType="text" Length="200">
        <Description><TranslatedText>Covariate/Descriptor; Source/Assigned</TranslatedText></Description>
      </ItemDef>
      <ItemDef OID="IT.ADSL.AGEGR1" Name="AGEGR1" DataType="text" Length="200">
        <Description><TranslatedText>Covariate/Descriptor; Source/Assigned</TranslatedText></Description>
      </ItemDef>
      <ItemDef OID="IT.ADSL.AGEGR1N" Name="AGEGR1N" DataType="text" Length="200">
        <Description><TranslatedText>Covariate/Descriptor; Derived</TranslatedText></Description>
      </ItemDef>
      <ItemDef OID="IT.ADSL.SEX" Name="SEX" DataType="text" Length="200">
        <Description><TranslatedText>Covariate/Descriptor; Source/Assigned</TranslatedText></Description>
      </ItemDef>
      <ItemDef OID="IT.ADSL.RACE" Name="RACE" DataType="text" Length="200">
        <Description><TranslatedText>Covariate/Descriptor; Source/Assigned</TranslatedText></Description>
      </ItemDef>
      <ItemDef OID="IT.ADSL.ECOG" Name="ECOG" DataType="text" Length="200">
        <Description><TranslatedText>Covariate/Descriptor; Source/Assigned</TranslatedText></Description>
      </ItemDef>
      <ItemDef OID="IT.ADSL.ECOGN" Name="ECOGN" DataType="text" Length="200">
        <Description><TranslatedText>Covariate/Descriptor; Source/Assigned</TranslatedText></Description>
      </ItemDef>
      <ItemDef OID="IT.ADSL.STAGE" Name="STAGE" DataType="text" Length="200">
        <Description><TranslatedText>Covariate/Descriptor; Source/Assigned</TranslatedText></Description>
      </ItemDef>
      <ItemDef OID="IT.ADSL.STAGE4FL" Name="STAGE4FL" DataType="text" Length="200">
        <Description><TranslatedText>Covariate/Descriptor; Derived</TranslatedText></Description>
      </ItemDef>
      <ItemDef OID="IT.ADSL.PDL1CAT" Name="PDL1CAT" DataType="text" Length="200">
        <Description><TranslatedText>Covariate/Descriptor; Source/Assigned</TranslatedText></Description>
      </ItemDef>
      <ItemDef OID="IT.ADSL.PDL1HIGHFL" Name="PDL1HIGHFL" DataType="text" Length="200">
        <Description><TranslatedText>Covariate/Descriptor; Derived</TranslatedText></Description>
      </ItemDef>
      <ItemDef OID="IT.ADSL.HISTOLOGY" Name="HISTOLOGY" DataType="text" Length="200">
        <Description><TranslatedText>Covariate/Descriptor; Source/Assigned</TranslatedText></Description>
      </ItemDef>
      <ItemDef OID="IT.ADSL.DISEASE_MONTHS" Name="DISEASE_MONTHS" DataType="text" Length="200">
        <Description><TranslatedText>Covariate/Descriptor; Source/Assigned</TranslatedText></Description>
      </ItemDef>
      <ItemDef OID="IT.ADSL.DCSREAS" Name="DCSREAS" DataType="text" Length="200">
        <Description><TranslatedText>Covariate/Descriptor; Source/Assigned</TranslatedText></Description>
      </ItemDef>
      <ItemDef OID="IT.ADTTE.STUDYID" Name="STUDYID" DataType="text" Length="200">
        <Description><TranslatedText>Identifier; Source/Assigned</TranslatedText></Description>
      </ItemDef>
      <ItemDef OID="IT.ADTTE.USUBJID" Name="USUBJID" DataType="text" Length="200">
        <Description><TranslatedText>Identifier; Source/Assigned</TranslatedText></Description>
      </ItemDef>
      <ItemDef OID="IT.ADTTE.TRT01P" Name="TRT01P" DataType="text" Length="200">
        <Description><TranslatedText>Covariate/Descriptor; Source/Assigned</TranslatedText></Description>
      </ItemDef>
      <ItemDef OID="IT.ADTTE.TRT01PN" Name="TRT01PN" DataType="text" Length="200">
        <Description><TranslatedText>Covariate/Descriptor; Derived</TranslatedText></Description>
      </ItemDef>
      <ItemDef OID="IT.ADTTE.PARAM" Name="PARAM" DataType="text" Length="200">
        <Description><TranslatedText>Covariate/Descriptor; Source/Assigned</TranslatedText></Description>
      </ItemDef>
      <ItemDef OID="IT.ADTTE.PARAMCD" Name="PARAMCD" DataType="text" Length="200">
        <Description><TranslatedText>Covariate/Descriptor; Source/Assigned</TranslatedText></Description>
      </ItemDef>
      <ItemDef OID="IT.ADTTE.AVAL" Name="AVAL" DataType="text" Length="200">
        <Description><TranslatedText>Analysis; Source/Assigned</TranslatedText></Description>
      </ItemDef>
      <ItemDef OID="IT.ADTTE.AVALD" Name="AVALD" DataType="text" Length="200">
        <Description><TranslatedText>Covariate/Descriptor; Source/Assigned</TranslatedText></Description>
      </ItemDef>
      <ItemDef OID="IT.ADTTE.CNSR" Name="CNSR" DataType="text" Length="200">
        <Description><TranslatedText>Analysis; Source/Assigned</TranslatedText></Description>
      </ItemDef>
      <ItemDef OID="IT.ADTTE.EVNTDESC" Name="EVNTDESC" DataType="text" Length="200">
        <Description><TranslatedText>Covariate/Descriptor; Source/Assigned</TranslatedText></Description>
      </ItemDef>
      <ItemDef OID="IT.ADTTE.STARTDT" Name="STARTDT" DataType="text" Length="200">
        <Description><TranslatedText>Covariate/Descriptor; Source/Assigned</TranslatedText></Description>
      </ItemDef>
      <ItemDef OID="IT.ADTTE.ADT" Name="ADT" DataType="text" Length="200">
        <Description><TranslatedText>Covariate/Descriptor; Source/Assigned</TranslatedText></Description>
      </ItemDef>
      <ItemDef OID="IT.ADTTE.ANL01FL" Name="ANL01FL" DataType="text" Length="200">
        <Description><TranslatedText>Covariate/Descriptor; Derived</TranslatedText></Description>
      </ItemDef>
      <ItemDef OID="IT.ADTTE.AGEGR1" Name="AGEGR1" DataType="text" Length="200">
        <Description><TranslatedText>Covariate/Descriptor; Source/Assigned</TranslatedText></Description>
      </ItemDef>
      <ItemDef OID="IT.ADTTE.SEX" Name="SEX" DataType="text" Length="200">
        <Description><TranslatedText>Covariate/Descriptor; Source/Assigned</TranslatedText></Description>
      </ItemDef>
      <ItemDef OID="IT.ADTTE.ECOG" Name="ECOG" DataType="text" Length="200">
        <Description><TranslatedText>Covariate/Descriptor; Source/Assigned</TranslatedText></Description>
      </ItemDef>
      <ItemDef OID="IT.ADTTE.STAGE" Name="STAGE" DataType="text" Length="200">
        <Description><TranslatedText>Covariate/Descriptor; Source/Assigned</TranslatedText></Description>
      </ItemDef>
      <ItemDef OID="IT.ADTTE.PDL1CAT" Name="PDL1CAT" DataType="text" Length="200">
        <Description><TranslatedText>Covariate/Descriptor; Source/Assigned</TranslatedText></Description>
      </ItemDef>
      <ItemDef OID="IT.ADTTE.REGION" Name="REGION" DataType="text" Length="200">
        <Description><TranslatedText>Covariate/Descriptor; Source/Assigned</TranslatedText></Description>
      </ItemDef>
      <ItemDef OID="IT.ADTTE.FASFL" Name="FASFL" DataType="text" Length="200">
        <Description><TranslatedText>Covariate/Descriptor; Source/Assigned</TranslatedText></Description>
      </ItemDef>
      <ItemDef OID="IT.ADAE.STUDYID" Name="STUDYID" DataType="text" Length="200">
        <Description><TranslatedText>Identifier; Source/Assigned</TranslatedText></Description>
      </ItemDef>
      <ItemDef OID="IT.ADAE.USUBJID" Name="USUBJID" DataType="text" Length="200">
        <Description><TranslatedText>Identifier; Source/Assigned</TranslatedText></Description>
      </ItemDef>
      <ItemDef OID="IT.ADAE.TRT01P" Name="TRT01P" DataType="text" Length="200">
        <Description><TranslatedText>Covariate/Descriptor; Source/Assigned</TranslatedText></Description>
      </ItemDef>
      <ItemDef OID="IT.ADAE.TRT01PN" Name="TRT01PN" DataType="text" Length="200">
        <Description><TranslatedText>Covariate/Descriptor; Derived</TranslatedText></Description>
      </ItemDef>
      <ItemDef OID="IT.ADAE.SAFFL" Name="SAFFL" DataType="text" Length="200">
        <Description><TranslatedText>Covariate/Descriptor; Source/Assigned</TranslatedText></Description>
      </ItemDef>
      <ItemDef OID="IT.ADAE.TRTSDT" Name="TRTSDT" DataType="text" Length="200">
        <Description><TranslatedText>Covariate/Descriptor; Source/Assigned</TranslatedText></Description>
      </ItemDef>
      <ItemDef OID="IT.ADAE.TRTEDT" Name="TRTEDT" DataType="text" Length="200">
        <Description><TranslatedText>Covariate/Descriptor; Source/Assigned</TranslatedText></Description>
      </ItemDef>
      <ItemDef OID="IT.ADAE.AESEQ" Name="AESEQ" DataType="text" Length="200">
        <Description><TranslatedText>Covariate/Descriptor; Source/Assigned</TranslatedText></Description>
      </ItemDef>
      <ItemDef OID="IT.ADAE.AEBODSYS" Name="AEBODSYS" DataType="text" Length="200">
        <Description><TranslatedText>Covariate/Descriptor; Source/Assigned</TranslatedText></Description>
      </ItemDef>
      <ItemDef OID="IT.ADAE.AEDECOD" Name="AEDECOD" DataType="text" Length="200">
        <Description><TranslatedText>Covariate/Descriptor; Source/Assigned</TranslatedText></Description>
      </ItemDef>
      <ItemDef OID="IT.ADAE.AETERM" Name="AETERM" DataType="text" Length="200">
        <Description><TranslatedText>Covariate/Descriptor; Source/Assigned</TranslatedText></Description>
      </ItemDef>
      <ItemDef OID="IT.ADAE.AESTDT" Name="AESTDT" DataType="text" Length="200">
        <Description><TranslatedText>Covariate/Descriptor; Source/Assigned</TranslatedText></Description>
      </ItemDef>
      <ItemDef OID="IT.ADAE.AEENDT" Name="AEENDT" DataType="text" Length="200">
        <Description><TranslatedText>Covariate/Descriptor; Source/Assigned</TranslatedText></Description>
      </ItemDef>
      <ItemDef OID="IT.ADAE.ASTDY" Name="ASTDY" DataType="text" Length="200">
        <Description><TranslatedText>Covariate/Descriptor; Derived</TranslatedText></Description>
      </ItemDef>
      <ItemDef OID="IT.ADAE.AENDY" Name="AENDY" DataType="text" Length="200">
        <Description><TranslatedText>Covariate/Descriptor; Derived</TranslatedText></Description>
      </ItemDef>
      <ItemDef OID="IT.ADAE.AETOXGR" Name="AETOXGR" DataType="text" Length="200">
        <Description><TranslatedText>Analysis; Source/Assigned</TranslatedText></Description>
      </ItemDef>
      <ItemDef OID="IT.ADAE.AESER" Name="AESER" DataType="text" Length="200">
        <Description><TranslatedText>Covariate/Descriptor; Source/Assigned</TranslatedText></Description>
      </ItemDef>
      <ItemDef OID="IT.ADAE.AEREL" Name="AEREL" DataType="text" Length="200">
        <Description><TranslatedText>Covariate/Descriptor; Source/Assigned</TranslatedText></Description>
      </ItemDef>
      <ItemDef OID="IT.ADAE.AEACN" Name="AEACN" DataType="text" Length="200">
        <Description><TranslatedText>Covariate/Descriptor; Source/Assigned</TranslatedText></Description>
      </ItemDef>
      <ItemDef OID="IT.ADAE.AEOUT" Name="AEOUT" DataType="text" Length="200">
        <Description><TranslatedText>Covariate/Descriptor; Source/Assigned</TranslatedText></Description>
      </ItemDef>
      <ItemDef OID="IT.ADAE.AESDTH" Name="AESDTH" DataType="text" Length="200">
        <Description><TranslatedText>Covariate/Descriptor; Source/Assigned</TranslatedText></Description>
      </ItemDef>
      <ItemDef OID="IT.ADAE.TRTEMFL" Name="TRTEMFL" DataType="text" Length="200">
        <Description><TranslatedText>Covariate/Descriptor; Source/Assigned</TranslatedText></Description>
      </ItemDef>
      <ItemDef OID="IT.ADAE.AOCCFL" Name="AOCCFL" DataType="text" Length="200">
        <Description><TranslatedText>Covariate/Descriptor; Derived</TranslatedText></Description>
      </ItemDef>
      <ItemDef OID="IT.ADAE.AOCCSFL" Name="AOCCSFL" DataType="text" Length="200">
        <Description><TranslatedText>Covariate/Descriptor; Derived</TranslatedText></Description>
      </ItemDef>
      <ItemDef OID="IT.ADRS.STUDYID" Name="STUDYID" DataType="text" Length="200">
        <Description><TranslatedText>Identifier; Source/Assigned</TranslatedText></Description>
      </ItemDef>
      <ItemDef OID="IT.ADRS.USUBJID" Name="USUBJID" DataType="text" Length="200">
        <Description><TranslatedText>Identifier; Source/Assigned</TranslatedText></Description>
      </ItemDef>
      <ItemDef OID="IT.ADRS.TRT01P" Name="TRT01P" DataType="text" Length="200">
        <Description><TranslatedText>Covariate/Descriptor; Source/Assigned</TranslatedText></Description>
      </ItemDef>
      <ItemDef OID="IT.ADRS.TRT01PN" Name="TRT01PN" DataType="text" Length="200">
        <Description><TranslatedText>Covariate/Descriptor; Derived</TranslatedText></Description>
      </ItemDef>
      <ItemDef OID="IT.ADRS.PARAM" Name="PARAM" DataType="text" Length="200">
        <Description><TranslatedText>Covariate/Descriptor; Source/Assigned</TranslatedText></Description>
      </ItemDef>
      <ItemDef OID="IT.ADRS.PARAMCD" Name="PARAMCD" DataType="text" Length="200">
        <Description><TranslatedText>Covariate/Descriptor; Source/Assigned</TranslatedText></Description>
      </ItemDef>
      <ItemDef OID="IT.ADRS.BOR" Name="BOR" DataType="text" Length="200">
        <Description><TranslatedText>Analysis; Source/Assigned</TranslatedText></Description>
      </ItemDef>
      <ItemDef OID="IT.ADRS.BORNUM" Name="BORNUM" DataType="text" Length="200">
        <Description><TranslatedText>Covariate/Descriptor; Derived</TranslatedText></Description>
      </ItemDef>
      <ItemDef OID="IT.ADRS.ORRFL" Name="ORRFL" DataType="text" Length="200">
        <Description><TranslatedText>Analysis; Source/Assigned</TranslatedText></Description>
      </ItemDef>
      <ItemDef OID="IT.ADRS.DCRFL" Name="DCRFL" DataType="text" Length="200">
        <Description><TranslatedText>Covariate/Descriptor; Source/Assigned</TranslatedText></Description>
      </ItemDef>
      <ItemDef OID="IT.ADRS.BESTPCHG" Name="BESTPCHG" DataType="text" Length="200">
        <Description><TranslatedText>Covariate/Descriptor; Source/Assigned</TranslatedText></Description>
      </ItemDef>
      <ItemDef OID="IT.ADRS.ANL01FL" Name="ANL01FL" DataType="text" Length="200">
        <Description><TranslatedText>Covariate/Descriptor; Derived</TranslatedText></Description>
      </ItemDef>
      <ItemDef OID="IT.ADRS.FASFL" Name="FASFL" DataType="text" Length="200">
        <Description><TranslatedText>Covariate/Descriptor; Source/Assigned</TranslatedText></Description>
      </ItemDef>
      <ItemDef OID="IT.ADRS.PDL1CAT" Name="PDL1CAT" DataType="text" Length="200">
        <Description><TranslatedText>Covariate/Descriptor; Source/Assigned</TranslatedText></Description>
      </ItemDef>
      <ItemDef OID="IT.ADRS.ECOG" Name="ECOG" DataType="text" Length="200">
        <Description><TranslatedText>Covariate/Descriptor; Source/Assigned</TranslatedText></Description>
      </ItemDef>
      <ItemDef OID="IT.ADLB.STUDYID" Name="STUDYID" DataType="text" Length="200">
        <Description><TranslatedText>Identifier; Source/Assigned</TranslatedText></Description>
      </ItemDef>
      <ItemDef OID="IT.ADLB.USUBJID" Name="USUBJID" DataType="text" Length="200">
        <Description><TranslatedText>Identifier; Source/Assigned</TranslatedText></Description>
      </ItemDef>
      <ItemDef OID="IT.ADLB.TRT01P" Name="TRT01P" DataType="text" Length="200">
        <Description><TranslatedText>Covariate/Descriptor; Source/Assigned</TranslatedText></Description>
      </ItemDef>
      <ItemDef OID="IT.ADLB.TRT01PN" Name="TRT01PN" DataType="text" Length="200">
        <Description><TranslatedText>Covariate/Descriptor; Derived</TranslatedText></Description>
      </ItemDef>
      <ItemDef OID="IT.ADLB.PARAM" Name="PARAM" DataType="text" Length="200">
        <Description><TranslatedText>Covariate/Descriptor; Source/Assigned</TranslatedText></Description>
      </ItemDef>
      <ItemDef OID="IT.ADLB.PARAMCD" Name="PARAMCD" DataType="text" Length="200">
        <Description><TranslatedText>Covariate/Descriptor; Source/Assigned</TranslatedText></Description>
      </ItemDef>
      <ItemDef OID="IT.ADLB.BASEGR" Name="BASEGR" DataType="text" Length="200">
        <Description><TranslatedText>Covariate/Descriptor; Source/Assigned</TranslatedText></Description>
      </ItemDef>
      <ItemDef OID="IT.ADLB.WORSTGR" Name="WORSTGR" DataType="text" Length="200">
        <Description><TranslatedText>Analysis; Source/Assigned</TranslatedText></Description>
      </ItemDef>
      <ItemDef OID="IT.ADLB.SHIFT" Name="SHIFT" DataType="text" Length="200">
        <Description><TranslatedText>Covariate/Descriptor; Source/Assigned</TranslatedText></Description>
      </ItemDef>
      <ItemDef OID="IT.ADLB.ANL01FL" Name="ANL01FL" DataType="text" Length="200">
        <Description><TranslatedText>Covariate/Descriptor; Derived</TranslatedText></Description>
      </ItemDef>
      <ItemDef OID="IT.ADLB.SAFFL" Name="SAFFL" DataType="text" Length="200">
        <Description><TranslatedText>Covariate/Descriptor; Source/Assigned</TranslatedText></Description>
      </ItemDef>
    </MetaDataVersion>
  </Study>
</ODM>